{
  "resourceType": "ServiceRequest",
  "contained": [ {
    "resourceType": "Device",
    "id": "aDevice",
    "deviceName": [ {
      "name": "MAC2000",
      "type": "user-friendly-name"
    } ]
  }, {
    "resourceType": "Organization",
    "id": "aHospital",
    "identifier": [ {
      "type": {
        "coding": [ {
          "system": "http://terminology.hl7.org/CodeSystem/v2-0203",
          "code": "XX",
          "display": "Organization identifier"
        } ]
      },
      "system": "https://twcore.mohw.gov.tw/ig/twcore/CodeSystem/organization-identifier-tw",
      "value": "1317050017"
    } ],
    "name": "中國醫藥大學附設醫院"
  }, {
    "resourceType": "Binary",
    "id": "anEKG",
    "contentType": "application/vnd-ge-museXML",
    "data": ""
  } ],
  "identifier": [ {
    "type": {
      "coding": [ {
        "system": "http://terminology.hl7.org/CodeSystem/v2-0203",
        "code": "PLAC",
        "display": "Placer Identifier"
      } ]
    },
    "system": "https://his.cmuh.org.tw/web/appSystem",
    "value": "K11379605|2025-08-22T15:51:12.000+08:00"
  } ],
  "instantiatesCanonical": [ "http://fhir-aic.adcmuh.org.tw/api/STEMI/ActivityDefinition/" ],
  "status": "active",
  "intent": "order",
  "subject": {
    "reference": "#aDevice"
  },
  "occurrenceDateTime": "2025-08-22T15:52:00+08:00",
  "requester": {
    "reference": "#aHospital"
  },
  "supportingInfo": [ {
    "reference": "#anEKG"
  } ]
}
